Folder: pynxxas/xas_beamline_data

Note: README.md
# pynxxas
Library for reading and writing XAS data in NeXus format.

<p align="center">
    <a href="https://pynxxas.readthedocs.io" alt="Documentation">
        <img src="https://readthedocs.org/projects/pynxxas/badge/?version=latest" /></a>
    <a href="https://github.com/XraySpectroscopy/pynxxas/actions/workflows/ci.yml" alt="CI Status">
        <img src="https://github.com/XraySpectroscopy/pynxxas/actions/workflows/ci.yml/badge.svg" /></a>
    <a href="https://github.com/XraySpectroscopy/pynxxas?tab=MIT-1-ov-file#MIT-1-ov-file" alt="License">
        <img src="https://img.shields.io/badge/license-MIT-blue" /></a>
    <a href="https://github.com/psf/black" alt="Code Style">
        <img src="https://img.shields.io/badge/code%20style-black-000000.svg" /></a>
</p>

File: NSLS6BM_2019.dat
# XDI/1.0 BlueSky/1.5.0
# Beamline.name: BMM (06BM) -- Beamline for Materials Measurement
# Beamline.xray_source: NSLS-II three-pole wiggler
# Beamline.collimation: paraboloid mirror, 5 nm Rh on 30 nm Pt
# Beamline.focusing: not in use
# Beamline.harmonic_rejection: flat mirror, Si stripe, pitch = 2.00 mrad
# Detector.I0: 10 cm N2
# Detector.I1: 25 cm N2
# Detector.I2: 25 cm N2
# Detector.fluorescence: SII Vortex ME4 (4-element silicon drift)
# Detector.deadtime_correction: DOI: 10.1107/S0909049510009064
# Element.symbol: V
# Element.edge: K
# Facility.name: NSLS-II
# Facility.current: 0.0 mA
# Facility.energy: 3.0 GeV
# Facility.mode: top-off
# Facility.GUP: 303443
# Facility.SAF: 303928
# Mono.name: Si(111)
# Mono.d_spacing: 3.13564 Ã…
# Mono.encoder_resolution: 0.0000050 deg/ct
# Mono.angle_offset: 16.0568 deg
# Mono.scan_mode: pseudo channel cut
# Mono.scan_type: step
# Mono.direction: forward in energy
# Sample.x_position: -113.866 mm
# Sample.y_position: 95.228 mm
# Sample.name: Ca0.25V2O5
# Sample.prep: slurry dried on SS 200 mesh 1 M ZnSO4
# Scan.experimenters: Chris Patridge
# Scan.edge_energy: 5465.0
# Scan.start_time: 2019-03-21T08:45:01
# Scan.end_time: 2019-03-21T09:00:56
# Scan.transient_id: 6986
# Scan.uid: 48c3dcf1-020e-4671-8c71-cc0db04dff01
# Scan.plot_hint: (DTC1 + DTC2 + DTC3 + DTC4) / I0  --  ($8+$9+$10+$11) / $5
# Column.1: energy eV
# Column.2: requested_energy eV
# Column.3: measurement_time seconds
# Column.4: xmu
# Column.5: I0 nA
# Column.6: It nA
# Column.7: Ir nA
# Column.8: DTC1 dead-time corrected count rate
# Column.9: DTC2 dead-time corrected count rate
# Column.10: DTC3 dead-time corrected count rate
# Column.11: DTC4 dead-time corrected count rate
# Column.12: ROI1 counts
# Column.13: ICR1 counts
# Column.14: OCR1 counts
# Column.15: ROI2 counts
# Column.16: ICR2 counts
# Column.17: OCR2 counts
# Column.18: ROI3 counts
# Column.19: ICR3 counts
# Column.20: OCR3 counts
# Column.21: ROI4 counts
# Column.22: ICR4 counts
# Column.23: OCR4 counts
# ///////////
# 48 hr rest
# -----------
# energy  requested_energy  measurement_time  xmu  I0  It  Ir  DTC1  DTC2  DTC3  DTC4  ROI1  ICR1  OCR1  ROI2  ICR2  OCR2  ROI3  ICR3  OCR3  ROI4  ICR4  OCR4
  5264.987  5265.000  0.500  53.1564  25.6577  0.000023  -0.006299  244.922  255.06  53.3061  810.583  243.0  957.0  950.0  256.0  948.0  952.0  53.0  1929.0  1920.0  805.0  1884.0  1873.0
  5345.564  5345.000  0.500  33.5728  27.7381  0.000340  -0.002298  158.048  168.907  34.2404  570.048  157.0  1171.0  1164.0  170.0  1126.0  1134.0  34.0  2255.0  2242.0  565.0  2233.0  2216.0
  5424.999  5425.000  0.500  18.2409  30.6142  0.000572  -0.003058  107.066  103.667  37.2415  310.456  106.0  1417.0  1404.0  104.0  1274.0  1279.0  37.0  2574.0  2561.0  307.0  2577.0  2552.0
  5448.996  5449.000  0.500  18.3516  31.3524  0.001197  -0.005234  127.876  143.215  44.2772  259.998  127.0  1495.0  1486.0  143.0  1459.0  1458.0  44.0  2751.0  2738.0  257.0  2690.0  2663.0
  5456.240  5456.250  0.500  19.5708  31.5377  0.000243  -0.011793  142.954  142.725  74.5481  256.989  142.0  1549.0  1540.0  143.0  1457.0  1461.0  74.0  2749.0  2733.0  254.0  2774.0  2746.0
  5458.243  5458.250  0.500  22.3266  31.5938  0.000789  -0.011748  166.775  167.57  92.7374  278.299  166.0  1598.0  1592.0  168.0  1474.0  1479.0  92.0  2821.0  2803.0  275.0  2704.0  2676.0
  5460.247  5460.250  0.500  25.2376  31.6153  0.000638  -0.010555  227.299  180.164  102.882  287.55  226.0  1672.0  1664.0  180.0  1620.0  1620.0  102.0  2867.0  2847.0  284.0  2885.0  2854.0
  5462.247  5462.250  0.500  30.8937  31.6537  0.000742  -0.006337  245.56  273.416  136.551  322.37  244.0  1657.0  1648.0  273.0  1612.0  1611.0  136.0  2910.0  2903.0  320.0  2989.0  2972.0
  5464.246  5464.250  0.500  42.6438  31.6808  0.000035  -0.007320  357.684  356.917  220.238  416.151  355.0  1854.0  1842.0  358.0  1743.0  1750.0  219.0  3075.0  3063.0  413.0  3071.0  3053.0
  5466.246  5466.250  0.500  158.129  31.7362  0.000570  -0.005228  1325.22  1475.18  899.419  1318.62  1316.0  3043.0  3027.0  1473.0  3195.0  3196.0  893.0  4147.0  4127.0  1307.0  4156.0  4129.0
  5468.250  5468.250  0.500  443.614  31.9318  0.000588  -0.007383  3944.13  4162.72  2657.67  3400.85  3909.0  6316.0  6282.0  4138.0  6460.0  6445.0  2630.0  6790.0  6745.0  3367.0  6840.0  6798.0
  5470.251  5470.250  0.500  193.664  31.9652  0.000015  -0.012665  1755.35  1881.97  1052.71  1500.48  1744.0  3584.0  3568.0  1874.0  3677.0  3669.0  1044.0  4520.0  4494.0  1483.0  4476.0  4435.0
  5472.251  5472.250  0.500  134.594  32.0191  0.000220  -0.001031  1210.94  1249.88  725.721  1123.04  1204.0  2927.0  2915.0  1247.0  2882.0  2880.0  719.0  3971.0  3943.0  1110.0  3921.0  3884.0
  5474.251  5474.250  0.500  170.395  32.0692  -0.000330  0.002401  1548.28  1649.05  952.286  1314.8  1538.0  3354.0  3338.0  1646.0  3305.0  3305.0  946.0  4266.0  4248.0  1304.0  4296.0  4271.0
  5476.250  5476.250  0.500  269.022  32.1065  0.000899  0.002772  2421.37  2580.45  1539.38  2096.15  2405.0  4434.0  4415.0  2575.0  4551.0  4553.0  1522.0  5081.0  5038.0  2073.0  5126.0  5084.0
  5478.246  5478.250  0.500  417.759  32.1685  0.000761  -0.009079  3735.84  4032.43  2510.93  3159.49  3701.0  6043.0  6007.0  4011.0  6437.0  6426.0  2488.0  6619.0  6583.0  3124.0  6633.0  6583.0
  5480.250  5480.250  0.500  586.14  32.2109  -0.000702  -0.000324  5311.72  5714.35  3428.97  4425.07  5248.0  7897.0  7837.0  5661.0  8434.0  8395.0  3394.0  8105.0  8059.0  4366.0  8187.0  8115.0
  5486.359  5486.350  0.590  796.281  38.1946  0.000441  0.005841  8480.94  9395.86  5547.67  6989.15  8364.0  12227.0  12129.0  9276.0  13313.0  13227.0  5468.0  11869.0  11765.0  6883.0  11902.0  11788.0
  5494.177  5494.170  0.690  782.044  44.9779  0.000956  -0.016539  9880.83  10881.4  6321.52  8090.95  9733.0  14160.0  14029.0  10769.0  15346.0  15283.0  6235.0  13801.0  13689.0  7977.0  13973.0  13855.0
  5503.212  5503.210  0.790  827.571  51.9169  0.000925  -0.007957  12074.6  12845  7923.8  10121.5  11895.0  17341.0  17189.0  12677.0  18322.0  18201.0  7801.0  16806.0  16645.0  9960.0  16849.0  16680.0
  5513.479  5513.480  0.890  767.406  59.2163  0.000358  -0.010278  12683.4  13917  8277.46  10565.1  12507.0  18438.0  18288.0  13758.0  19878.0  19775.0  8151.0  18058.0  17884.0  10394.0  18332.0  18140.0
  5524.965  5524.960  0.990  763.146  66.5355  0.000513  -0.016926  14204  15504.1  9183.85  11884.4  13981.0  20548.0  20344.0  15335.0  22148.0  22045.0  9051.0  20042.0  19865.0  11703.0  20547.0  20352.0
  5537.667  5537.660  1.090  762.235  74.0428  0.000435  -0.002038  15844.3  17051.8  10352.6  13189.3  15600.0  23099.0  22879.0  16848.0  24566.0  24427.0  10208.0  22505.0  22320.0  12991.0  22790.0  22580.0
  5551.588  5551.580  1.190  773.881  81.711  0.000286  -0.006251  17778.7  19203.8  11551.1  14701.1  17494.0  25902.0  25644.0  18957.0  27515.0  27339.0  11379.0  25232.0  25005.0  14473.0  25321.0  25078.0
  5566.722  5566.720  1.290  801.287  89.6568  0.001910  -0.008692  20374.5  21665.1  13050.8  16750.5  20043.0  29410.0  29118.0  21380.0  30980.0  30780.0  12856.0  28455.0  28205.0  16467.0  28855.0  28546.0
  5583.086  5583.080  1.390  809.27  97.7762  0.001336  -0.008420  22507.8  24020  14235  18364.5  22143.0  32380.0  32065.0  23713.0  34321.0  34119.0  14027.0  31289.0  31028.0  18063.0  31578.0  31259.0
  5600.659  5600.650  1.490  807.251  106.363  0.001782  -0.012341  23886  26163.8  15860.7  19951.4  23503.0  34862.0  34530.0  25825.0  37435.0  37213.0  15619.0  34378.0  34075.0  19626.0  34629.0  34288.0
  5619.462  5619.450  1.590  824.368  115.539  0.001217  -0.014373  26876.5  29018.6  17387.9  21963.8  26430.0  39102.0  38720.0  28610.0  41464.0  41182.0  17107.0  37606.0  37246.0  21604.0  38419.0  38048.0
  5639.470  5639.470  1.690  840.47  123.98  0.001950  -0.006424  29063.8  31673  19191.3  24273.6  28578.0  42500.0  42087.0  31177.0  45381.0  45010.0  18863.0  41319.0  40893.0  23841.0  41888.0  41430.0
  5660.690  5660.700  1.790  847.129  132.88  0.001480  -0.021074  31746.4  34157.1  20431.8  26230.8  31166.0  46133.0  45620.0  33639.0  49084.0  48715.0  20078.0  44203.0  43741.0  25770.0  45270.0  44793.0
  5683.155  5683.160  1.890  852.888  142.15  0.001740  -0.021752  33933.5  36786  22578.1  27940.1  33305.0  49370.0  48814.0  36193.0  52860.0  52420.0  22184.0  48344.0  47844.0  27445.0  48682.0  48168.0
  5706.828  5706.830  1.990  866.906  151.296  0.000688  -0.009272  36928.8  39759.7  23929.9  30541.4  36227.0  53712.0  53094.0  39088.0  57025.0  56517.0  23510.0  51497.0  50964.0  29983.0  52835.0  52259.0
  5731.711  5731.720  2.090  884.169  160.506  0.002241  -0.013771  39563  43252.3  26291.1  32807.8  38816.0  57773.0  57126.0  42527.0  62132.0  61605.0  25803.0  56383.0  55759.0  32198.0  56921.0  56294.0
  5757.837  5757.840  2.190  902.332  170.366  0.001596  -0.024002  42946.7  46702.3  28481  35596.9  42096.0  62878.0  62134.0  45874.0  66781.0  66164.0  27943.0  61022.0  60342.0  34909.0  61600.0  60891.0
  5785.175  5785.170  2.290  920.644  179.43  0.001713  -0.023004  45970  50446  30885.6  37889.9  45070.0  67031.0  66264.0  49503.0  72383.0  71667.0  30273.0  65570.0  64791.0  37142.0  65909.0  65135.0
  5813.722  5813.720  2.390  934.445  188.203  0.003096  -0.015718  49374.4  53777.4  32172.6  40541.4  48348.0  72146.0  71251.0  52736.0  77278.0  76477.0  31545.0  69191.0  68398.0  39729.0  70250.0  69416.0
  5843.495  5843.490  2.490  958.538  196.158  0.002167  -0.021551  52535.2  56970.2  34744  43775.9  51436.0  77067.0  76117.0  55891.0  81770.0  80969.0  34067.0  74187.0  73356.0  42879.0  75244.0  74334.0
  5874.486  5874.480  2.590  984.332  205.85  0.001951  -0.016617  56783.1  61718.6  37448.1  46675.4  55577.0  82977.0  81953.0  60476.0  88553.0  87613.0  36687.0  79927.0  78988.0  45696.0  80749.0  79754.0
  5906.684  5906.680  2.690  1010.83  211.546  0.003163  -0.019328  59921.8  65175  39275.2  49464.7  58653.0  87871.0  86808.0  63886.0  93838.0  92894.0  38491.0  84062.0  83114.0  48427.0  84993.0  83956.0
  5940.118  5940.110  2.790  1040.42  201.279  0.002544  -0.020973  58611.7  63831.1  38558.2  48412.8  57369.0  88312.0  87216.0  62618.0  93401.0  92497.0  37801.0  82835.0  81892.0  47407.0  85935.0  84885.0
  5974.767  5974.760  2.890  1069.39  225.498  0.003685  -0.025136  67750.3  73222.7  43908.3  56263.4  66222.0  102426.0  101124.0  71604.0  109273.0  108007.0  42937.0  95422.0  94186.0  55003.0  97015.0  95746.0
  6010.623  6010.620  2.990  1256.24  232.445  0.002336  -0.035139  78986.1  88416.4  44804.8  79800.1  74075.0  303563.0  293145.0  82261.0  323347.0  310383.0  42372.0  269713.0  261766.0  75367.0  279724.0  271390.0
  6047.714  6047.710  3.090  1279.66  238.74  0.003562  -0.028101  81913.5  92935.8  46935.6  83720.7  76832.0  314002.0  303280.0  86497.0  335582.0  322288.0  44403.0  278745.0  270629.0  79074.0  289873.0  281273.0
  6086.015  6086.010  3.190  1326.49  242.518  0.005683  -0.010659  86405.8  97429.5  48928.2  88933.9  80709.0  343889.0  331376.0  90271.0  366501.0  351056.0  46133.0  304549.0  295150.0  83637.0  316694.0  306474.0
  6120.533  6120.530  3.280  1332.73  244.111  0.004067  -0.028523  88197.7  97844.2  50610.4  88681.1  82672.0  337485.0  325870.0  90964.0  358768.0  344252.0  47886.0  296596.0  288018.0  83700.0  308226.0  298885.0